AE:
  - formoid: "F_AE_1"
    columns:
      STUDYID: 
        source: "StudyOID"
        type: "str"
      DOMAIN: 
        literal: "AE"
        type: "str"
      USUBJID: 
        source: "StudySubjectID"
        prefix: "PPT-"
        type: "str"
      AESEQ: 
        source: "ItemGroupRepeatKey"
        type: "int"
      AETERM: 
        source: "I_AE_TERM"
        type: "str"
      AESTDTC: 
        source: "I_AE_STARTDATE"
        type: "str"
      AESEV: 
        source: "I_AE_SEVERITY"
        type: "str"
