DS:
  - formoid: "F_DISP_1"
    keys: ["StudyOID", "SubjectKey", "StudyEventOID", "StudyEventRepeatKey", "ItemGroupRepeatKey"]
    columns:
      STUDYID:
        source: "StudyOID"
        type: "str"
      DOMAIN:
        literal: "DS"
        type: "str"
      USUBJID:
        source: "SubjectKey"
        type: "str"
      DSSEQ:
        source: "ItemGroupRepeatKey"
        type: "int"
      DSTERM:
        source: "I_DISP_TERM"
        type: "str"
      DSDECOD:
        source: "I_DISP_DECOD"
        type: "str"
      DSDTC:
        source: "I_DISP_DTC"
        type: "str"
