FA:
  # Findings About Adverse Events (Compact List)
  - formoid: "F_AE_1"
    keys: ["StudyOID", "SubjectKey", "StudyEventOID", "StudyEventRepeatKey", "ItemGroupRepeatKey"]
    columns:
      STUDYID: {source: "StudyOID", type: "str"}
      DOMAIN: {literal: "FA", type: "str"}
      USUBJID: {source: "SubjectKey", type: "str"}
      FASEQ: {source: "ItemGroupRepeatKey", type: "int"}
      
      FAOBJ: 
        source: "I_AE_TERM" 
        type: "str"
        
      # Compact List Expansion
      FATESTCD: 
        literal: ["SEV", "LOC"]
        type: "str"
      
      FATEST: 
        literal: ["Severity", "Location"]
        type: "str"
      
      FAORRES: 
        source: ["I_AE_SEVERITY", "I_AE_LOC_MOCK"] # LOC_MOCK will assume NaN
        type: "str"
        
      FASTRESC: 
        source: ["I_AE_SEVERITY", "I_AE_LOC_MOCK"]
        type: "str"
      
      FADTC: {source: "I_AE_STARTDATE", type: "str"}
