AE:
  - formoid: "F_ADVERSEEVENT"
    keys: ["StudyOID", "StudySubjectID", "StudyEventOID", "StudyEventRepeatKey", "ItemGroupRepeatKey"]
    columns:
      STUDYID:
        source: "StudyOID"
        type: "str"
      DOMAIN:
        literal: "AE"
        type: "str"
      USUBJID:
        source: "StudySubjectID"
        prefix: "CART-"
        type: "str"
      AESTDTC:
        source: "I_ADVER_AESTDAT"
        type: "str"
      AESEQ:
        group: ["USUBJID"]
        sort_by: ["AESTDTC"]
        type: "int"
      AETERM:
        source: "I_ADVER_AETERM"
        type: "str"
      AEENDTC:
        source: "I_ADVER_AEENDDAT"
        type: "str"
      AESEV:
        source: "I_ADVER_AESEV"
        type: "str"
